{
  "resourceType": "Bundle",
  "type": "transaction",
  "entry": [
    {
      "fullUrl": "urn:uuid:acfe95e4-d850-3b3a-9458-2798f58cee94",
      "resource": {
        "resourceType": "Patient",
        "id": "acfe95e4-d850-3b3a-9458-2798f58cee94",
        "identifier": [
          {
            "value": "D26376273",
            "type": {
              "coding": [
                {
                  "code": "MR",
                  "system": "http://terminology.hl7.org/CodeSystem/v2-0203"
                }
              ]
            }
          }
        ],
        "name": [
          {
            "family": "Snow",
            "given": [
              "Madelynn",
              "Ainsley"
            ],
            "use": "official"
          }
        ],
        "birthDate": "2007-07-06",
        "gender": "female",
        "address": [
          {
            "line": [
              "32 Prescott Street Ave"
            ],
            "city": "Warwick",
            "state": "MA",
            "postalCode": "02452",
            "country": "USA"
          }
        ],
        "telecom": [
          {
            "use": "home"
          }
        ],
        "active": "true"
      },
      "request": {
        "method": "PUT",
        "url": "Patient/acfe95e4-d850-3b3a-9458-2798f58cee94"
      }
    },
    {
      "fullUrl": "urn:uuid:d98acca7-2502-3ef5-a6d1-4d6208c6d56a",
      "resource": {
        "resourceType": "RelatedPerson",
        "id": "d98acca7-2502-3ef5-a6d1-4d6208c6d56a",
        "relationship": [
          {
            "coding": [
              {
                "code": "MTH",
                "display": "mother",
                "system": "http://terminology.hl7.org/CodeSystem/v3-RoleCode"
              }
            ]
          }
        ],
        "address": [
          {
            "line": [
              "32 Prescott Street Ave"
            ],
            "city": "Warwick",
            "state": "MA",
            "postalCode": "02452",
            "country": "USA"
          }
        ],
        "name": [
          {
            "family": "Lam",
            "given": [
              "Morgan"
            ],
            "use": "official"
          }
        ],
        "patient": {
          "reference": "Patient/acfe95e4-d850-3b3a-9458-2798f58cee94"
        }
      },
      "request": {
        "method": "PUT",
        "url": "RelatedPerson/d98acca7-2502-3ef5-a6d1-4d6208c6d56a"
      }
    },
    {
      "fullUrl": "urn:uuid:8a2ce85d-b348-3caf-9423-848a9a966392",
      "resource": {
        "resourceType": "ServiceRequest",
        "id": "8a2ce85d-b348-3caf-9423-848a9a966392",
        "intent": "order",
        "identifier": [
          {
            "type": {
              "coding": [
                {
                  "code": "PLAC",
                  "system": "http://terminology.hl7.org/CodeSystem/v2-0203"
                }
              ]
            }
          },
          {
            "value": "IZ-783274",
            "type": {
              "coding": [
                {
                  "code": "FILL",
                  "system": "http://terminology.hl7.org/CodeSystem/v2-0203"
                }
              ]
            }
          }
        ],
        "subject": {
          "reference": "Patient/acfe95e4-d850-3b3a-9458-2798f58cee94"
        },
        "supportingInfo": [
          {
            "reference": "Observation/f7cb853d-6440-30d3-9844-9cd663b4684d"
          },
          {
            "reference": "Observation/99fa48a4-4b04-313d-9bb2-4006f836c491"
          },
          {
            "reference": "Observation/330b293a-2f0b-3575-82bd-6ebc5c59a4b0"
          },
          {
            "reference": "Observation/4ddee8b7-490d-3b18-99e3-5b30acda2c9d"
          }
        ]
      },
      "request": {
        "method": "PUT",
        "url": "ServiceRequest/8a2ce85d-b348-3caf-9423-848a9a966392"
      }
    },
    {
      "fullUrl": "urn:uuid:20954c00-20a5-3dbc-b4bb-c7777b944787",
      "resource": {
        "resourceType": "Provenance",
        "id": "20954c00-20a5-3dbc-b4bb-c7777b944787",
        "agent": [
          {
            "type": {
              "coding": [
                {
                  "code": "enterer",
                  "system": "http://terminology.hl7.org/CodeSystem/provenance-participant-type"
                }
              ]
            }
          },
          {
            "type": {
              "coding": [
                {
                  "code": "author",
                  "system": "http://terminology.hl7.org/CodeSystem/provenance-participant-type"
                }
              ]
            }
          }
        ],
        "target": [
          {
            "reference": "ServiceRequest/8a2ce85d-b348-3caf-9423-848a9a966392"
          }
        ]
      },
      "request": {
        "method": "PUT",
        "url": "Provenance/20954c00-20a5-3dbc-b4bb-c7777b944787"
      }
    },
    {
      "fullUrl": "urn:uuid:f7cb853d-6440-30d3-9844-9cd663b4684d",
      "resource": {
        "resourceType": "Observation",
        "id": "f7cb853d-6440-30d3-9844-9cd663b4684d",
        "code": {
          "coding": [
            {
              "code": "64994-7",
              "display": "Vaccine funding program eligibility category",
              "system": "LN"
            }
          ]
        },
        "valueCodeableConcept": {
          "coding": [
            {
              "code": "V05",
              "display": "VFC eligible - Federally Qualified Health Center Patient (under-insured)",
              "system": "HL70064"
            }
          ]
        },
        "status": "final",
        "effectiveDateTime": "2012-07-01",
        "component": [
          {
            "code": {
              "coding": [
                {
                  "code": "64994-7",
                  "display": "Vaccine funding program eligibility category",
                  "system": "LN"
                }
              ]
            }
          }
        ],
        "subject": {
          "reference": "Patient/acfe95e4-d850-3b3a-9458-2798f58cee94"
        }
      },
      "request": {
        "method": "PUT",
        "url": "Observation/f7cb853d-6440-30d3-9844-9cd663b4684d"
      }
    },
    {
      "fullUrl": "urn:uuid:99fa48a4-4b04-313d-9bb2-4006f836c491",
      "resource": {
        "resourceType": "Observation",
        "id": "99fa48a4-4b04-313d-9bb2-4006f836c491",
        "code": {
          "coding": [
            {
              "code": "30956-7",
              "display": "vaccine type",
              "system": "LN"
            }
          ]
        },
        "valueCodeableConcept": {
          "coding": [
            {
              "code": "88",
              "display": "Influenza, unspecified formulation",
              "system": "CVX"
            }
          ]
        },
        "status": "final",
        "component": [
          {
            "code": {
              "coding": [
                {
                  "code": "30956-7",
                  "display": "vaccine type",
                  "system": "LN"
                }
              ]
            }
          }
        ],
        "subject": {
          "reference": "Patient/acfe95e4-d850-3b3a-9458-2798f58cee94"
        }
      },
      "request": {
        "method": "PUT",
        "url": "Observation/99fa48a4-4b04-313d-9bb2-4006f836c491"
      }
    },
    {
      "fullUrl": "urn:uuid:330b293a-2f0b-3575-82bd-6ebc5c59a4b0",
      "resource": {
        "resourceType": "Observation",
        "id": "330b293a-2f0b-3575-82bd-6ebc5c59a4b0",
        "code": {
          "coding": [
            {
              "code": "29768-9",
              "display": "Date vaccine information statement published",
              "system": "LN"
            }
          ]
        },
        "status": "final",
        "component": [
          {
            "code": {
              "coding": [
                {
                  "code": "29768-9",
                  "display": "Date vaccine information statement published",
                  "system": "LN"
                }
              ]
            }
          }
        ],
        "subject": {
          "reference": "Patient/acfe95e4-d850-3b3a-9458-2798f58cee94"
        }
      },
      "request": {
        "method": "PUT",
        "url": "Observation/330b293a-2f0b-3575-82bd-6ebc5c59a4b0"
      }
    },
    {
      "fullUrl": "urn:uuid:4ddee8b7-490d-3b18-99e3-5b30acda2c9d",
      "resource": {
        "resourceType": "Observation",
        "id": "4ddee8b7-490d-3b18-99e3-5b30acda2c9d",
        "code": {
          "coding": [
            {
              "code": "29769-7",
              "display": "Date vaccine information statement presented",
              "system": "LN"
            }
          ]
        },
        "status": "final",
        "component": [
          {
            "code": {
              "coding": [
                {
                  "code": "29769-7",
                  "display": "Date vaccine information statement presented",
                  "system": "LN"
                }
              ]
            }
          }
        ],
        "subject": {
          "reference": "Patient/acfe95e4-d850-3b3a-9458-2798f58cee94"
        }
      },
      "request": {
        "method": "PUT",
        "url": "Observation/4ddee8b7-490d-3b18-99e3-5b30acda2c9d"
      }
    }
  ]
}