{
  "resourceType": "Bundle",
  "type": "transaction",
  "entry": [
    {
      "fullUrl": "urn:uuid:46fd0c14-d5f6-486f-dd4b-845eae37c31a",
      "resource": {
        "resourceType": "Patient",
        "id": "46fd0c14-d5f6-486f-dd4b-845eae37c31a",
        "identifier": [ { "value": "MRNTC14" } ],
        "name": [
          {
            "family": "Old",
            "given": [ "Baby Girl" ],
            "use": "official"
          }
        ],
        "birthDate": "2016-02-23",
        "gender": "female",
        "address": [
          {
            "line": [ "123 Main Street", "Apartment 3-C" ],
            "city": "Oldtown",
            "state": "MI",
            "postalCode": "48917",
            "country": "USA"
          }
        ],
        "telecom": [
          { "use": "home" },
          { "use": "work" }
        ],
        "deceasedBoolean": "false"
      },
      "request": {
        "method": "PUT",
        "url": "Patient/46fd0c14-d5f6-486f-dd4b-845eae37c31a"
      }
    },
    {
      "fullUrl": "urn:uuid:b8878b55-86df-f82e-88eb-d3ddd954d270",
      "resource": {
        "resourceType": "RelatedPerson",
        "id": "b8878b55-86df-f82e-88eb-d3ddd954d270",
        "relationship": [
          {
            "coding": [
              {
                "code": "MTH",
                "display": "mother",
                "system": "http://terminology.hl7.org/CodeSystem/v3-RoleCode"
              }
            ]
          },
          {
            "coding": [
              {
                "code": "E",
                "display": "Employer",
                "system": "http://terminology.hl7.org/CodeSystem/v2-0131"
              }
            ]
          }
        ],
        "address": [
          {
            "line": [ "123 Main Street", "Apartment 3-C" ],
            "city": "Oldtown",
            "state": "MI",
            "postalCode": "48917",
            "country": "USA"
          }
        ],
        "name": [
          {
            "family": "Shonal",
            "given": [ "Old" ]
          }
        ],
        "patient": { "reference": "Patient/46fd0c14-d5f6-486f-dd4b-845eae37c31a" }
      },
      "request": {
        "method": "PUT",
        "url": "RelatedPerson/b8878b55-86df-f82e-88eb-d3ddd954d270"
      }
    },
    {
      "fullUrl": "urn:uuid:844853cc-9a26-45ab-5ade-12391312b2b0",
      "resource": {
        "resourceType": "ServiceRequest",
        "id": "844853cc-9a26-45ab-5ade-12391312b2b0",
        "intent": "order",
        "identifier": [
          {
            "value": "ORD723222",
            "type": {
              "coding": [
                {
                  "code": "PLAC",
                  "system": "http://terminology.hl7.org/CodeSystem/v2-0203"
                }
              ]
            }
          },
          {
            "value": "R783274",
            "type": {
              "coding": [
                {
                  "code": "FILL",
                  "system": "http://terminology.hl7.org/CodeSystem/v2-0203"
                }
              ]
            }
          },
          {
            "value": "GORD874211",
            "type": {
              "coding": [
                {
                  "code": "PGN",
                  "system": "http://terminology.hl7.org/CodeSystem/v2-0203"
                }
              ]
            }
          },
          {
            "type": {
              "coding": [
                {
                  "code": "FILL",
                  "system": "http://terminology.hl7.org/CodeSystem/v2-0203"
                }
              ]
            }
          },
          { "value": "ORD723222" },
          { "value": "R-783274" }
        ],
        "authoredOn": "2016-02-23T22:37:05+08:00",
        "occurrenceDateTime": "2016-02-23T22:47:05+08:00",
        "subject": { "reference": "Patient/46fd0c14-d5f6-486f-dd4b-845eae37c31a" },
        "code": {
          "coding": [
            {
              "code": "1320",
              "display": "HIV Ag/Ab - Serum",
              "system": "L"
            },
            {
              "code": "1680",
              "display": "Syphilis (USR test)(1)",
              "system": "L"
            }
          ]
        },
        "reasonCode": [
          {
            "coding": [
              {
                "code": "RFS01",
                "display": "Diagnosis",
                "system": "BOL_0001"
              }
            ]
          }
        ],
        "supportingInfo": [ { "reference": "Observation/1be1181d-d83e-a632-423f-f9f1e16081be" } ],
        "specimen": [ { "reference": "Specimen/96eadba8-6c3d-8882-e4b0-e19a98492e48" } ]
      },
      "request": {
        "method": "PUT",
        "url": "ServiceRequest/844853cc-9a26-45ab-5ade-12391312b2b0"
      }
    },
    {
      "resource": {
        "resourceType": "Provenance",
        "id": "33bc7aee-8a6a-cdfd-46f8-264697163ca8",
        "target": [ { "reference": "ServiceRequest/844853cc-9a26-45ab-5ade-12391312b2b0" } ],
        "agent": [
          {
            "type": {
              "coding": [
                {
                  "code": "author",
                  "system": "http://terminology.hl7.org/CodeSystem/provenance-participant-type"
                }
              ]
            }
          },
          {
            "type": {
              "coding": [
                {
                  "code": "author",
                  "system": "http://terminology.hl7.org/CodeSystem/provenance-participant-type"
                }
              ]
            }
          }
        ],
        "recorded": "2016-02-23T22:37:05+08:00",
        "activity": {
          "coding": [
            {
              "code": "CREATE",
              "system": "http://terminology.hl7.org/CodeSystem/v3-DataOperation"
            }
          ]
        },
        "occurredDateTime": "2016-02-23T22:37:05+08:00"
      },
      "fullUrl": "urn:uuid:33bc7aee-8a6a-cdfd-46f8-264697163ca8",
      "request": {
        "method": "PUT",
        "url": "Provenance/33bc7aee-8a6a-cdfd-46f8-264697163ca8"
      }
    },
    {
      "fullUrl": "urn:uuid:1be1181d-d83e-a632-423f-f9f1e16081be",
      "resource": {
        "resourceType": "Observation",
        "id": "1be1181d-d83e-a632-423f-f9f1e16081be",
        "code": {
          "coding": [
            {
              "code": "AOE25",
              "display": "Pregnancy",
              "system": "BOL_0002"
            }
          ]
        },
        "valueString": "NO",
        "effectiveDateTime": "2016-03-08T23:32:05+08:00",
        "component": [
          {
            "code": {
              "coding": [
                {
                  "code": "AOE25",
                  "display": "Pregnancy",
                  "system": "BOL_0002"
                }
              ]
            },
            "valueString": "NO"
          }
        ],
        "subject": { "reference": "Patient/46fd0c14-d5f6-486f-dd4b-845eae37c31a" }
      },
      "request": {
        "method": "PUT",
        "url": "Observation/1be1181d-d83e-a632-423f-f9f1e16081be"
      }
    },
    {
      "fullUrl": "urn:uuid:96eadba8-6c3d-8882-e4b0-e19a98492e48",
      "resource": {
        "resourceType": "Specimen",
        "id": "96eadba8-6c3d-8882-e4b0-e19a98492e48",
        "type": {
          "coding": [
            {
              "code": "119339001",
              "display": "Stool Specimen (Specimen)",
              "system": "SCT"
            }
          ]
        },
        "container": [ { "additiveCodeableConcept": { "coding": [ { "code": "NONE" } ] } } ],
        "collection": { "collectedDateTime": "2016-03-08T23:32:05+08:00" }
      },
      "request": {
        "method": "PUT",
        "url": "Specimen/96eadba8-6c3d-8882-e4b0-e19a98492e48"
      }
    }
  ]
}