{
  "resourceType": "Bundle",
  "type": "transaction",
  "entry": [
    {
      "fullUrl": "urn:uuid:dda8c6b4-bbb0-3322-aafb-f4d73ac2a605",
      "resource": {
        "resourceType": "Patient",
        "id": "dda8c6b4-bbb0-3322-aafb-f4d73ac2a605",
        "identifier": [
          {
            "value": "90012",
            "type": {
              "coding": [
                {
                  "code": "MR",
                  "system": "http://terminology.hl7.org/CodeSystem/v2-0203"
                }
              ]
            }
          }
        ],
        "name": [
          {
            "family": "Wong",
            "given": [
              "Elise"
            ],
            "use": "official"
          }
        ],
        "birthDate": "1983-06-15",
        "gender": "female",
        "address": [
          {
            "line": [
              "9200 Wellington Trail"
            ],
            "city": "Bozeman",
            "state": "MT",
            "postalCode": "59715",
            "country": "USA"
          }
        ],
        "telecom": [
          {
            "use": "home"
          },
          {
            "use": "home"
          }
        ],
        "multipleBirthInteger": "1",
        "deceasedBoolean": "false",
        "active": "true"
      },
      "request": {
        "method": "PUT",
        "url": "Patient/dda8c6b4-bbb0-3322-aafb-f4d73ac2a605"
      }
    },
    {
      "fullUrl": "urn:uuid:286898fd-f041-336f-b50d-d109cd2196fd",
      "resource": {
        "resourceType": "ServiceRequest",
        "id": "286898fd-f041-336f-b50d-d109cd2196fd",
        "intent": "order",
        "identifier": [
          {
            "value": "4422",
            "type": {
              "coding": [
                {
                  "code": "PLAC",
                  "system": "http://terminology.hl7.org/CodeSystem/v2-0203"
                }
              ]
            }
          },
          {
            "value": "13696",
            "type": {
              "coding": [
                {
                  "code": "FILL",
                  "system": "http://terminology.hl7.org/CodeSystem/v2-0203"
                }
              ]
            }
          }
        ],
        "subject": {
          "reference": "Patient/dda8c6b4-bbb0-3322-aafb-f4d73ac2a605"
        },
        "supportingInfo": [
          {
            "reference": "Observation/c9ca56b8-0eb7-3591-9162-99e405686de2"
          },
          {
            "reference": "Observation/5b5f0964-6a0e-3cb9-a05d-d024d945faf5"
          },
          {
            "reference": "Observation/bde210b4-35c1-322f-b108-674c8f899407"
          },
          {
            "reference": "Observation/68afd0de-5aef-3c89-90a1-2fb2e7583a94"
          }
        ]
      },
      "request": {
        "method": "PUT",
        "url": "ServiceRequest/286898fd-f041-336f-b50d-d109cd2196fd"
      }
    },
    {
      "fullUrl": "urn:uuid:a90fbac7-5ff4-3122-b523-6b39c4f27e1b",
      "resource": {
        "resourceType": "Provenance",
        "id": "a90fbac7-5ff4-3122-b523-6b39c4f27e1b",
        "agent": [
          {
            "type": {
              "coding": [
                {
                  "code": "enterer",
                  "system": "http://terminology.hl7.org/CodeSystem/provenance-participant-type"
                }
              ]
            }
          },
          {
            "type": {
              "coding": [
                {
                  "code": "author",
                  "system": "http://terminology.hl7.org/CodeSystem/provenance-participant-type"
                }
              ]
            }
          }
        ],
        "target": [
          {
            "reference": "ServiceRequest/286898fd-f041-336f-b50d-d109cd2196fd"
          }
        ]
      },
      "request": {
        "method": "PUT",
        "url": "Provenance/a90fbac7-5ff4-3122-b523-6b39c4f27e1b"
      }
    },
    {
      "fullUrl": "urn:uuid:c9ca56b8-0eb7-3591-9162-99e405686de2",
      "resource": {
        "resourceType": "Observation",
        "id": "c9ca56b8-0eb7-3591-9162-99e405686de2",
        "code": {
          "coding": [
            {
              "code": "30963-3",
              "display": "Vaccine Funding Source",
              "system": "LN"
            }
          ]
        },
        "valueCodeableConcept": {
          "coding": [
            {
              "code": "PHC70",
              "display": "Private",
              "system": "CDCPHINVS"
            }
          ]
        },
        "status": "final",
        "effectiveDateTime": "2015-06-24",
        "component": [
          {
            "code": {
              "coding": [
                {
                  "code": "30963-3",
                  "display": "Vaccine Funding Source",
                  "system": "LN"
                }
              ]
            }
          }
        ],
        "subject": {
          "reference": "Patient/dda8c6b4-bbb0-3322-aafb-f4d73ac2a605"
        }
      },
      "request": {
        "method": "PUT",
        "url": "Observation/c9ca56b8-0eb7-3591-9162-99e405686de2"
      }
    },
    {
      "fullUrl": "urn:uuid:5b5f0964-6a0e-3cb9-a05d-d024d945faf5",
      "resource": {
        "resourceType": "Observation",
        "id": "5b5f0964-6a0e-3cb9-a05d-d024d945faf5",
        "code": {
          "coding": [
            {
              "code": "64994-7",
              "display": "Vaccine Funding Program Eligibility",
              "system": "LN"
            }
          ]
        },
        "valueCodeableConcept": {
          "coding": [
            {
              "code": "V01",
              "display": "Not VFC Eligible",
              "system": "HL70064"
            }
          ]
        },
        "status": "final",
        "effectiveDateTime": "2015-06-24",
        "component": [
          {
            "code": {
              "coding": [
                {
                  "code": "64994-7",
                  "display": "Vaccine Funding Program Eligibility",
                  "system": "LN"
                }
              ]
            }
          }
        ],
        "subject": {
          "reference": "Patient/dda8c6b4-bbb0-3322-aafb-f4d73ac2a605"
        }
      },
      "request": {
        "method": "PUT",
        "url": "Observation/5b5f0964-6a0e-3cb9-a05d-d024d945faf5"
      }
    },
    {
      "fullUrl": "urn:uuid:bde210b4-35c1-322f-b108-674c8f899407",
      "resource": {
        "resourceType": "Observation",
        "id": "bde210b4-35c1-322f-b108-674c8f899407",
        "code": {
          "coding": [
            {
              "code": "69764-9",
              "display": "Document Type",
              "system": "LN"
            }
          ]
        },
        "valueCodeableConcept": {
          "coding": [
            {
              "code": "253088698300028811170411",
              "display": "Tetanus/Diphtheria (Td) Vaccine VIS",
              "system": "cdcgs1vis"
            }
          ]
        },
        "status": "final",
        "effectiveDateTime": "2015-06-24",
        "component": [
          {
            "code": {
              "coding": [
                {
                  "code": "69764-9",
                  "display": "Document Type",
                  "system": "LN"
                }
              ]
            }
          }
        ],
        "subject": {
          "reference": "Patient/dda8c6b4-bbb0-3322-aafb-f4d73ac2a605"
        }
      },
      "request": {
        "method": "PUT",
        "url": "Observation/bde210b4-35c1-322f-b108-674c8f899407"
      }
    },
    {
      "fullUrl": "urn:uuid:68afd0de-5aef-3c89-90a1-2fb2e7583a94",
      "resource": {
        "resourceType": "Observation",
        "id": "68afd0de-5aef-3c89-90a1-2fb2e7583a94",
        "code": {
          "coding": [
            {
              "code": "29769-7",
              "display": "Date Vis Presented",
              "system": "LN"
            }
          ]
        },
        "valueDateTime": "2015-06-24",
        "status": "final",
        "effectiveDateTime": "2015-06-24",
        "component": [
          {
            "code": {
              "coding": [
                {
                  "code": "29769-7",
                  "display": "Date Vis Presented",
                  "system": "LN"
                }
              ]
            },
            "valueDateTime": "2015-06-24"
          }
        ],
        "subject": {
          "reference": "Patient/dda8c6b4-bbb0-3322-aafb-f4d73ac2a605"
        }
      },
      "request": {
        "method": "PUT",
        "url": "Observation/68afd0de-5aef-3c89-90a1-2fb2e7583a94"
      }
    },
    {
      "fullUrl": "urn:uuid:c937e5ca-e95b-3794-9ab7-6f702da14665",
      "resource": {
        "resourceType": "ServiceRequest",
        "id": "c937e5ca-e95b-3794-9ab7-6f702da14665",
        "intent": "order",
        "identifier": [
          {
            "type": {
              "coding": [
                {
                  "code": "PLAC",
                  "system": "http://terminology.hl7.org/CodeSystem/v2-0203"
                }
              ]
            }
          },
          {
            "value": "38760",
            "type": {
              "coding": [
                {
                  "code": "FILL",
                  "system": "http://terminology.hl7.org/CodeSystem/v2-0203"
                }
              ]
            }
          }
        ],
        "subject": {
          "reference": "Patient/dda8c6b4-bbb0-3322-aafb-f4d73ac2a605"
        }
      },
      "request": {
        "method": "PUT",
        "url": "ServiceRequest/c937e5ca-e95b-3794-9ab7-6f702da14665"
      }
    },
    {
      "fullUrl": "urn:uuid:927ba6df-b1cc-3548-a790-4f5aae15c67b",
      "resource": {
        "resourceType": "Provenance",
        "id": "927ba6df-b1cc-3548-a790-4f5aae15c67b",
        "agent": [
          {
            "type": {
              "coding": [
                {
                  "code": "enterer",
                  "system": "http://terminology.hl7.org/CodeSystem/provenance-participant-type"
                }
              ]
            }
          }
        ],
        "target": [
          {
            "reference": "ServiceRequest/c937e5ca-e95b-3794-9ab7-6f702da14665"
          }
        ]
      },
      "request": {
        "method": "PUT",
        "url": "Provenance/927ba6df-b1cc-3548-a790-4f5aae15c67b"
      }
    },
    {
      "fullUrl": "urn:uuid:f1da6d16-bb30-3acb-8b10-989b0662fb77",
      "resource": {
        "resourceType": "ServiceRequest",
        "id": "f1da6d16-bb30-3acb-8b10-989b0662fb77",
        "intent": "order",
        "identifier": [
          {
            "type": {
              "coding": [
                {
                  "code": "PLAC",
                  "system": "http://terminology.hl7.org/CodeSystem/v2-0203"
                }
              ]
            }
          },
          {
            "value": "35508",
            "type": {
              "coding": [
                {
                  "code": "FILL",
                  "system": "http://terminology.hl7.org/CodeSystem/v2-0203"
                }
              ]
            }
          }
        ],
        "subject": {
          "reference": "Patient/dda8c6b4-bbb0-3322-aafb-f4d73ac2a605"
        }
      },
      "request": {
        "method": "PUT",
        "url": "ServiceRequest/f1da6d16-bb30-3acb-8b10-989b0662fb77"
      }
    },
    {
      "fullUrl": "urn:uuid:4bd31440-c928-37b5-a09b-9cbdbd25c684",
      "resource": {
        "resourceType": "Provenance",
        "id": "4bd31440-c928-37b5-a09b-9cbdbd25c684",
        "agent": [
          {
            "type": {
              "coding": [
                {
                  "code": "enterer",
                  "system": "http://terminology.hl7.org/CodeSystem/provenance-participant-type"
                }
              ]
            }
          }
        ],
        "target": [
          {
            "reference": "ServiceRequest/f1da6d16-bb30-3acb-8b10-989b0662fb77"
          }
        ]
      },
      "request": {
        "method": "PUT",
        "url": "Provenance/4bd31440-c928-37b5-a09b-9cbdbd25c684"
      }
    }
  ]
}