{
  "resourceType": "Bundle",
  "type": "transaction",
  "entry": [
    {
      "fullUrl": "urn:uuid:7e5adec4-e7e7-0650-4989-1a51c7f42ebe",
      "resource": {
        "resourceType": "Patient",
        "id": "7e5adec4-e7e7-0650-4989-1a51c7f42ebe",
        "identifier": [
          { "value": "555-44-4444" },
          {
            "value": "67-A4335",
            "type": { "coding": [ { "code": "DL" } ] },
            "system": "OH",
            "period": { "end": "2003-05-20" }
          }
        ],
        "name": [
          {
            "family": "EVERYWOMAN",
            "given": [ "EVE", "E" ],
            "use": "official"
          }
        ],
        "birthDate": "1962-03-20",
        "gender": "female",
        "address": [
          {
            "line": [ "153 FERNWOOD DR." ],
            "city": "STATESVILLE",
            "state": "OH",
            "postalCode": "35292"
          }
        ],
        "telecom": [
          {
            "value": "(206)3345232",
            "use": "home"
          },
          {
            "value": "(206)752-121",
            "use": "work"
          }
        ]
      },
      "request": {
        "method": "PUT",
        "url": "Patient/7e5adec4-e7e7-0650-4989-1a51c7f42ebe"
      }
    },
    {
      "fullUrl": "urn:uuid:c64b3dcd-15a4-182c-af0d-79129f12941b",
      "resource": {
        "resourceType": "DiagnosticReport",
        "id": "c64b3dcd-15a4-182c-af0d-79129f12941b",
        "identifier": [
          {
            "type": {
              "coding": [
                {
                  "code": "FILL",
                  "system": "http://terminology.hl7.org/CodeSystem/v2-0203"
                }
              ]
            }
          },
          { "value": "845439" },
          { "value": "1045813" }
        ],
        "effectiveDateTime": "2002-02-15T07:30:00Z",
        "code": {
          "coding": [
            {
              "code": "15545",
              "display": "GLUCOSE"
            }
          ]
        },
        "status": "final",
        "result": [ { "reference": "Observation/68d7a78a-b621-7356-88c3-644443be27e5" } ]
      },
      "request": {
        "method": "PUT",
        "url": "DiagnosticReport/c64b3dcd-15a4-182c-af0d-79129f12941b"
      }
    },
    {
      "fullUrl": "urn:uuid:68d7a78a-b621-7356-88c3-644443be27e5",
      "resource": {
        "resourceType": "Observation",
        "id": "68d7a78a-b621-7356-88c3-644443be27e5",
        "code": {
          "coding": [
            {
              "code": "1554-5",
              "display": "GLUCOSE",
              "system": "POST 12H CFST:MCNC:PT:SER/PLAS:QN"
            }
          ]
        },
        "valueQuantity": { "code": "mg/dl" },
        "valueRange": { "low": { "value": "182" } },
        "interpretation": [
          {
            "coding": [
              {
                "code": "H",
                "display": "High",
                "system": "http://terminology.hl7.org/CodeSystem/v3-ObservationInterpretation"
              }
            ]
          }
        ],
        "status": "final",
        "component": [
          {
            "code": {
              "coding": [
                {
                  "code": "1554-5",
                  "display": "GLUCOSE",
                  "system": "POST 12H CFST:MCNC:PT:SER/PLAS:QN"
                }
              ]
            },
            "valueQuantity": { "code": "mg/dl" },
            "valueRange": { "low": { "value": "182" } },
            "referenceRange": [ { "text": "70_105" } ],
            "interpretation": [
              {
                "coding": [
                  {
                    "code": "H",
                    "display": "High",
                    "system": "http://terminology.hl7.org/CodeSystem/v3-ObservationInterpretation"
                  }
                ]
              }
            ]
          }
        ],
        "subject": { "reference": "Patient/7e5adec4-e7e7-0650-4989-1a51c7f42ebe" }
      },
      "request": {
        "method": "PUT",
        "url": "Observation/68d7a78a-b621-7356-88c3-644443be27e5"
      }
    }
  ]
}