{
  "resourceType": "Bundle",
  "type": "transaction",
  "entry": [
    {
      "fullUrl": "urn:uuid:acfe95e4-d850-3b3a-9458-2798f58cee94",
      "resource": {
        "resourceType": "Patient",
        "id": "acfe95e4-d850-3b3a-9458-2798f58cee94",
        "identifier": [
          {
            "value": "D26376273",
            "type": {
              "coding": [
                {
                  "code": "MR",
                  "system": "http://terminology.hl7.org/CodeSystem/v2-0203"
                }
              ]
            }
          }
        ],
        "name": [
          {
            "family": "Snow",
            "given": [
              "Madelynn",
              "Ainsley"
            ],
            "use": "official"
          }
        ],
        "birthDate": "2007-07-06",
        "gender": "female",
        "address": [
          {
            "line": [
              "32 Prescott Street Ave"
            ],
            "city": "Warwick",
            "state": "MA",
            "postalCode": "02452",
            "country": "USA"
          }
        ],
        "telecom": [
          {
            "use": "home"
          }
        ],
        "active": "true"
      },
      "request": {
        "method": "PUT",
        "url": "Patient/acfe95e4-d850-3b3a-9458-2798f58cee94"
      }
    },
    {
      "fullUrl": "urn:uuid:d98acca7-2502-3ef5-a6d1-4d6208c6d56a",
      "resource": {
        "resourceType": "RelatedPerson",
        "id": "d98acca7-2502-3ef5-a6d1-4d6208c6d56a",
        "relationship": [
          {
            "coding": [
              {
                "code": "MTH",
                "display": "mother",
                "system": "http://terminology.hl7.org/CodeSystem/v3-RoleCode"
              }
            ]
          }
        ],
        "address": [
          {
            "line": [
              "32 Prescott Street Ave"
            ],
            "city": "Warwick",
            "state": "MA",
            "postalCode": "02452",
            "country": "USA"
          }
        ],
        "name": [
          {
            "family": "Lam",
            "given": [
              "Morgan"
            ],
            "use": "official"
          }
        ],
        "patient": {
          "reference": "Patient/acfe95e4-d850-3b3a-9458-2798f58cee94"
        }
      },
      "request": {
        "method": "PUT",
        "url": "RelatedPerson/d98acca7-2502-3ef5-a6d1-4d6208c6d56a"
      }
    },
    {
      "fullUrl": "urn:uuid:22b3a56a-0160-3b71-a05e-04ad9b19d9bc",
      "resource": {
        "resourceType": "Immunization",
        "id": "22b3a56a-0160-3b71-a05e-04ad9b19d9bc",
        "identifier": [
          {
            "value": "IZ-783274",
            "type": {
              "coding": [
                {
                  "code": "FILL",
                  "system": "http://terminology.hl7.org/CodeSystem/v2-0203"
                }
              ]
            }
          }
        ],
        "performer": [
          {
            "function": {
              "coding": [
                {
                  "code": "OP",
                  "system": "http://terminology.hl7.org/CodeSystem/v2-0443"
                }
              ]
            }
          },
          {
            "function": {
              "coding": [
                {
                  "code": "AP",
                  "system": "http://terminology.hl7.org/CodeSystem/v2-0443"
                }
              ]
            }
          }
        ],
        "patient": {
          "reference": "Patient/acfe95e4-d850-3b3a-9458-2798f58cee94"
        },
        "occurrenceDateTime": "2012-08-14",
        "vaccineCode": {
          "coding": [
            {
              "code": "140",
              "display": "Influenza, seasonal, injectable, preservative free",
              "system": "CVX"
            }
          ]
        },
        "lotNumber": "Z0860BB",
        "expirationDate": "2012-11-04",
        "status": "completed"
      },
      "request": {
        "method": "PUT",
        "url": "Immunization/22b3a56a-0160-3b71-a05e-04ad9b19d9bc"
      }
    },
    {
      "fullUrl": "urn:uuid:651793f9-a20c-3049-9157-2524af3a72df",
      "resource": {
        "resourceType": "Observation",
        "id": "651793f9-a20c-3049-9157-2524af3a72df",
        "code": {
          "coding": [
            {
              "code": "64994-7",
              "display": "Vaccine funding program eligibility category",
              "system": "LN"
            }
          ]
        },
        "valueCodeableConcept": {
          "coding": [
            {
              "code": "V05",
              "display": "VFC eligible - Federally Qualified Health Center Patient (under-insured)",
              "system": "HL70064"
            }
          ]
        },
        "status": "final",
        "effectiveDateTime": "2012-07-01",
        "component": [
          {
            "code": {
              "coding": [
                {
                  "code": "64994-7",
                  "display": "Vaccine funding program eligibility category",
                  "system": "LN"
                }
              ]
            }
          }
        ],
        "partOf": [
          {
            "reference": "Immunization/22b3a56a-0160-3b71-a05e-04ad9b19d9bc"
          }
        ],
        "subject": {
          "reference": "Patient/acfe95e4-d850-3b3a-9458-2798f58cee94"
        }
      },
      "request": {
        "method": "PUT",
        "url": "Observation/651793f9-a20c-3049-9157-2524af3a72df"
      }
    },
    {
      "fullUrl": "urn:uuid:67664810-56a9-3b85-8901-873ab9829473",
      "resource": {
        "resourceType": "Observation",
        "id": "67664810-56a9-3b85-8901-873ab9829473",
        "code": {
          "coding": [
            {
              "code": "30956-7",
              "display": "vaccine type",
              "system": "LN"
            }
          ]
        },
        "valueCodeableConcept": {
          "coding": [
            {
              "code": "88",
              "display": "Influenza, unspecified formulation",
              "system": "CVX"
            }
          ]
        },
        "status": "final",
        "component": [
          {
            "code": {
              "coding": [
                {
                  "code": "30956-7",
                  "display": "vaccine type",
                  "system": "LN"
                }
              ]
            }
          }
        ],
        "partOf": [
          {
            "reference": "Immunization/22b3a56a-0160-3b71-a05e-04ad9b19d9bc"
          }
        ],
        "subject": {
          "reference": "Patient/acfe95e4-d850-3b3a-9458-2798f58cee94"
        }
      },
      "request": {
        "method": "PUT",
        "url": "Observation/67664810-56a9-3b85-8901-873ab9829473"
      }
    },
    {
      "fullUrl": "urn:uuid:bdd83d99-ec11-31e2-a1d3-ce267a471e60",
      "resource": {
        "resourceType": "Observation",
        "id": "bdd83d99-ec11-31e2-a1d3-ce267a471e60",
        "code": {
          "coding": [
            {
              "code": "29768-9",
              "display": "Date vaccine information statement published",
              "system": "LN"
            }
          ]
        },
        "status": "final",
        "component": [
          {
            "code": {
              "coding": [
                {
                  "code": "29768-9",
                  "display": "Date vaccine information statement published",
                  "system": "LN"
                }
              ]
            }
          }
        ],
        "partOf": [
          {
            "reference": "Immunization/22b3a56a-0160-3b71-a05e-04ad9b19d9bc"
          }
        ],
        "subject": {
          "reference": "Patient/acfe95e4-d850-3b3a-9458-2798f58cee94"
        }
      },
      "request": {
        "method": "PUT",
        "url": "Observation/bdd83d99-ec11-31e2-a1d3-ce267a471e60"
      }
    },
    {
      "fullUrl": "urn:uuid:cb4f0c36-5d63-31b7-87bf-d7c89a01d93e",
      "resource": {
        "resourceType": "Observation",
        "id": "cb4f0c36-5d63-31b7-87bf-d7c89a01d93e",
        "code": {
          "coding": [
            {
              "code": "29769-7",
              "display": "Date vaccine information statement presented",
              "system": "LN"
            }
          ]
        },
        "status": "final",
        "component": [
          {
            "code": {
              "coding": [
                {
                  "code": "29769-7",
                  "display": "Date vaccine information statement presented",
                  "system": "LN"
                }
              ]
            }
          }
        ],
        "partOf": [
          {
            "reference": "Immunization/22b3a56a-0160-3b71-a05e-04ad9b19d9bc"
          }
        ],
        "subject": {
          "reference": "Patient/acfe95e4-d850-3b3a-9458-2798f58cee94"
        }
      },
      "request": {
        "method": "PUT",
        "url": "Observation/cb4f0c36-5d63-31b7-87bf-d7c89a01d93e"
      }
    }
  ]
}